{
    "resourceType": "Bundle",
    "id": "3d0c9cc7-60ea-44e0-9ee8-765abbb660dd",
    "identifier": {
        "system": "https://fhir.mytrust.nhs.uk/Id/RCB/PAS",
        "value": "13403891320453338075"
    },
    "type": "message",
    "timestamp": "2021-09-17T12:20:00.742000+00:00",
    "entry": [
        {
            "fullUrl": "urn:uuid:844ebe20-78f0-4d77-8890-44d588717ca9",
            "resource": {
                "resourceType": "MessageHeader",
                "eventCoding": {
                    "system": "https://fhir.nhs.uk/CodeSystem/message-event",
                    "code": "document"
                },
                "destination": [
                    {
                        "endpoint": "urn:nhs-uk:addressing:mesh:Y90638OT002",
                        "receiver": {
                            "identifier": {
                                "system": "https://fhir.nhs.uk/Id/ods-organization-code",
                                "value": "Y9062"
                            },
                            "display": "Elmet Healthcare1"
                        }
                    }
                ],
                "sender": {
                    "identifier": {
                        "system": "https://fhir.nhs.uk/Id/ods-organization-code",
                        "value": "RR8"
                    },
                    "display": "Elmet Healthcare2"
                },
                "source": {
                    "endpoint": "urn:nhs-uk:addressing:mesh:Y90638OT001"
                },
                "focus": [
                    {
                        "reference": "urn:uuid:5da894e0-a57e-43e9-a1a1-e283a484003c"
                    }
                ]
            }
        },
        {
            "fullUrl": "urn:uuid:5da894e0-a57e-43e9-a1a1-e283a484003c",
            "resource": {
                "resourceType": "DocumentReference",
                "contained": [
                    {
                        "resourceType": "PractitionerRole",
                        "id": "author",
                        "practitioner": {
                            "identifier": {
                                "system": "https://fhir.hl7.org.uk/Id/gmp-number",
                                "value": "G5654321"
                            },
                            "display": "Dr Gregory Townley"
                        },
                        "organization": {
                            "identifier": {
                                "system": "https://fhir.nhs.uk/Id/ods-organization-code",
                                "value": "RR8"
                            },
                            "display": "LEEDS TEACHING HOSPITALS NHS TRUST"
                        },
                        "healthcareService": [
                            {
                                "identifier": {
                                    "system": "http://fhir.nhs.uk/Id/dos-service-id",
                                    "value": "1234567"
                                },
                                "display": "Online Consultations Service"
                            }
                        ]
                    }
                ],
                "identifier": [
                    {
                        "value": "5da894e0-a57e-43e9-a1a1-e283a484003c"
                    }
                ],
                "type": {
                    "coding": [
                        {
                            "system": "http://snomed.info/sct",
                            "code": "766841000000106",
                            "display": "Consultation with patient"
                        }
                    ]
                },
                "status": "current",
                "subject": {
                    "reference": "urn:uuid:221c028d-e15b-4d60-8035-c460c8231fa3"
                },
                "author": [
                    {
                        "reference": "#author"
                    }
                ],
                "custodian" :{
                    "identifier": {
                        "system": "https://fhir.nhs.uk/Id/ods-organization-code",
                        "value": "RR8"
                    },
                    "display": "LEEDS TEACHING HOSPITALS NHS TRUST"
                },
                "date": "2021-09-17T12:20:00.742000+00:00",
                "content": [
                    {
                        "attachment": {
                            "contentType": "text/html",
                            "url": "urn:uuid:db60a89b-3989-4290-b373-2e4a7266e556"
                        }
                    }
                ]
            }
        },
        {
            "fullUrl": "urn:uuid:221c028d-e15b-4d60-8035-c460c8231fa3",
            "resource": {
                "resourceType": "Patient",
                "identifier": [
                    {
                        "system": "https://fhir.nhs.uk/Id/nhs-number",
                        "value": "9333333333"
                    }
                ],
                "name": [
                    {
                        "family": "SMITH",
                        "given": [
                            "FREDRICA"
                        ],
                        "prefix": [
                            "MRS"
                        ]
                    }
                ],
                "telecom": [
                    {
                        "system": "phone",
                        "value": "+441234567890",
                        "use": "home"
                    }
                ],
                "gender": "female",
                "birthDate": "1965-11-12",
                "address": [
                    {
                        "use": "home",
                        "city": "MALTON",
                        "district": "NORTH YORKSHIRE",
                        "postalCode": "YO32 5TT"
                    }
                ],
                "contact": [
                    {
                        "name": {
                            "family": "SMITH",
                            "given": [
                                "FRANCESCA"
                            ],
                            "prefix": [
                                "MRS"
                            ]
                        },
                        "address": {
                            "use": "home",
                            "city": "MALTON",
                            "district": "NORTH YORKSHIRE",
                            "postalCode": "YO32 5TT"
                        }
                    }
                ],
                "generalPractitioner": [
                    {
                        "identifier": {
                            "system": "https://fhir.hl7.org.uk/Id/gmp-number",
                            "value": "G5612908"
                        },
                        "display": "Dr Gregory Townley"
                    },
                    {
                        "identifier": {
                            "system": "https://fhir.nhs.uk/Id/ods-organization-code",
                            "value": "Y06601"
                        },
                        "display": "MALTON GP PRACTICE"
                    }
                ]
            }
        },
        {
            "fullUrl": "urn:uuid:db60a89b-3989-4290-b373-2e4a7266e556",
            "resource": {
                "resourceType": "Binary",
                "contentType": "text/html",
                "data": ""
            }
        }
    ]
}