{
    "resourceType": "Bundle",
    "id": "86e3371d-1c15-4862-9552-d9560f8292ba",
    "meta": {
        "versionId": "1.1.0-alpha",
        "lastUpdated": "2022-06-01T15:00:00+00:00"
    },
    "type": "message",
    "timestamp": "2021-11-26T15:00:00+00:00",
    "entry": [
        {
            "fullUrl": "urn:uuid:1cbdfb97-5859-48a4-8301-d54eab818d68",
            "resource": {
                "resourceType": "MessageHeader",
                "meta": {
                    "lastUpdated": "2021-11-26T15:00:00+00:00"
                },
                "eventCoding": {
                    "system": "https://fhir.nhs.uk/CodeSystem/message-events-bars",
                    "code": "servicerequest-request"
                },
                "destination": [
                    {
                        "endpoint": "http://fhir.nhs.uk/Id/dos-service-id|111111111",
                        "receiver": {
                            "identifier": {
                                "system": "https://fhir.nhs.uk/id/ods-organization-code",
                                "value": "CAS-001"
                            }
                        }
                    }
                ],
                "sender": {
                    "identifier": {
                        "system": "https://fhir.nhs.uk/id/ods-organization-code",
                        "value": "RND"
                    },
                    "display": "Sender Organization"
                },
                "source": {
                    "extension": [
                        {
                            "url": "https://fhir.nhs.uk/StructureDefinition/CDSSExtension",
                            "extension": [
                                {
                                    "url": "RequesterCDSSsoftware",
                                    "valueString": "Pathways"
                                },
                                {
                                    "url": "RequesterCDSSversion",
                                    "valueString": "30.2.0"
                                }
                            ]
                        }
                    ],
                    "name": "Emergency service",
                    "software": "Patient Manager",
                    "version": "1.7",
                    "contact": {
                        "system": "phone",
                        "value": "+44 (0113) 123 4567"
                    },
                    "endpoint": "http://fhir.nhs.uk/Id/dos-service-id|2222222222"
                },
                "reason": {
                    "coding": [
                        {
                            "system": "https://fhir.nhs.uk/CodeSystem/message-reason-bars",
                            "code": "new"
                        }
                    ]
                },
                "focus": [
                    {
                        "reference": "urn:uuid:236bb75d-90ef-461f-b71e-fde7f899802c"
                    },
                    {
                        "reference": "urn:uuid:8c63d621-4d86-4f57-8699-e8e22d49935d"
                    },
                    {
                        "reference": "urn:uuid:5b94d980-b9b6-42ce-8ca3-56676af6c0a7"
                    },
                    {
                        "reference": "urn:uuid:1e91008e-96d0-438b-873c-c6d2c007fc29"
                    },
                    {
                        "reference":"urn:uuid:c584542a-a1c6-4b77-a3e8-4a5b0b9cea09"
                    }
                ],
                "definition": "https://fhir.nhs.uk/MessageDefinition/bars-message-servicerequest-request-validation"
            }
        },
        {
            "fullUrl": "urn:uuid:236bb75d-90ef-461f-b71e-fde7f899802c",
            "resource": {
                "resourceType": "ServiceRequest",
                "meta": {
                    "lastUpdated": "2021-11-26T15:00:00+00:00"
                },
                "basedOn": [
                    {
                        "reference": "urn:uuid:68d3c42e-f76e-4f66-9498-d96e1040c81c"
                    }
                ],
                "status": "active",
                "intent": "plan",
                "category": [
                    {
                        "coding": [
                            {
                                "system": "https://fhir.nhs.uk/CodeSystem/message-category-servicerequest",
                                "code": "validation",
                                "display": "For Validation"
                            }
                        ]
                    }
                ],
                "subject": {
                    "reference": "urn:uuid:9589fb37-87a2-48d8-968f-b371429208a8"
                },
                "encounter": {
                    "reference": "urn:uuid:8c63d621-4d86-4f57-8699-e8e22d49935d"
                },
                "occurrencePeriod": {
                    "start": "2021-11-26T15:00:00+00:00",
                    "end": "2021-11-26T15:20:00+00:00"
                },
                "requester": {
                    "identifier": {
                        "system": "https://fhir.nhs.uk/Id/sds-role-profile-id",
                        "value": "PT2489"
                    },
                    "display": "Marcy Blake"
                },
                "performer": [
                    {
                        "reference": "urn:uuid:d482d092-6efc-4eef-b4a0-730718b1fbfd"
                    }
                ],
                "locationReference": [
                    {
                        "reference": "urn:uuid:2ec99e82-a0af-4b70-bd53-1869d84b2ad1"
                    }
                ]
            }
        },
        {
            "fullUrl": "urn:uuid:d482d092-6efc-4eef-b4a0-730718b1fbfd",
            "resource": {
                "resourceType": "HealthcareService",
                "meta": {
                    "lastUpdated": "2021-11-26T15:00:00+00:00"
                },
                "identifier": [
                    {
                        "system": "http://fhir.nhs.uk/Id/dos-service-id",
                        "value": "111111111"
                    }
                ],
                "active": true,
                "providedBy": {
                    "identifier": 
                        {
                            "system": "https://fhir.nhs.uk/id/ods-organization-code",
                            "value": "RYE"
                        }
                    ,
                    "display": "Receiving/performing Organization"
                },
                "name": "Consulting psychologists and/or psychology services"
            }
        },
        {
            "fullUrl": "urn:uuid:8c63d621-4d86-4f57-8699-e8e22d49935d",
            "resource": {
                "resourceType": "Encounter",
                "meta": {
                    "lastUpdated": "2021-11-26T15:00:00+00:00"
                },
                "identifier": [
                    {
                        "system": "https://sender.url/Id/case-number",
                        "value": "sender1234"
                    }
                ],
                "status": "triaged",
                "class": {
                    "system": "http://terminology.hl7.org/CodeSystem/v3-ActCode",
                    "code": "EMER",
                    "display": "emergency"
                },
                "subject": {
                    "reference": "urn:uuid:9589fb37-87a2-48d8-968f-b371429208a8"
                },
                "episodeOfCare": [
                    {
                        "reference": "https://sender.url/EpisodeOfCare/d877b820-e72b-44d1-a627-195f54bfc606"
                    }
                ],
                "period": {
                    "start": "2021-11-26T15:00:00+00:00"
                }
            }
        },
        {
            "fullUrl": "urn:uuid:68d3c42e-f76e-4f66-9498-d96e1040c81c",
            "resource": {
                "resourceType": "CarePlan",
                "meta": {
                    "lastUpdated": "2021-11-26T15:00:00+00:00"
                },
                "status": "active",
                "intent": "plan",
                "subject": {
                    "reference": "urn:uuid:9589fb37-87a2-48d8-968f-b371429208a8"
                },
                "period": {
                    "start": "2021-11-26T15:00:00+00:00"
                },
                "encounter": {
                    "reference": "urn:uuid:8c63d621-4d86-4f57-8699-e8e22d49935d"
                },
                "activity": [
                    {
                        "outcomeCodeableConcept": [
                            {
                                "coding": [
                                    {
                                        "system": "https://fhir.nhs.uk/CodeSystem/pathways-sd-codes",
                                        "code": "SD4033",
                                        "display": "AMB new/worsening breathlessness"
                                    }
                                ]
                            },
                            {
                                "coding": [
                                    {
                                        "system": "https://fhir.nhs.uk/CodeSystem/pathways-sg-codes",
                                        "code": "SG1137",
                                        "display": "Palpitations"
                                    }
                                ]
                            },
                            {
                                "coding": [
                                    {
                                        "system": "https://fhir.nhs.uk/CodeSystem/pathways-dx-codes",
                                        "code": "Dx0122",
                                        "display": "Emergency Ambulance Response (Category 3)"
                                    }
                                ]
                            },
                            {
                                "coding": [
                                    {
                                        "system": "https://fhir.nhs.uk/CodeSystem/arp-priority-code",
                                        "code": "C3",
                                        "display": "Cat3 Urgent"
                                    }
                                ]
                            },
                            {
                                "text": "CONSULTATION SUMMARY /n PRINTED ON 22/02/2022 10:52:18 CASE ID: e093dd1d-d377-4819-8c52-504b93de49da NHS PATHWAYS R32.2.0_Nightly (Alpha) /n PATIENT: Julie Jones TELEPHONE: AGE GROUP: Adult GENDER: Female PARTY: 3 POSTCODE: LS10 4YU NOTES: /n SKILLSET: 999 Call Handler CALL HANDLER USER ID: user1@nhs.net PATHWAY: PW1030 - Palpitations SYMPTOM GROUP: SG1137 - Palpitations SYMPTOM DISCRIMINATOR: SD4033 - AMB new/worsening breathlessness DISPOSITION: Dx0122 - Emergency Ambulance Response (Category 3) SELECTED CARE SERVICE: No care service selected /n CONSULTATION SUMMARY: Conscious Illness - Palpitations Warm to touch New/worsening breathlessness Breathing worsening in last hour No indication scene unsafe PATHWAYS ASSESSMENT: Cardiac arrest not identified at this point. The individual was conscious at the time of the assessment. The call was not from a health professional. It was not appropriate to speak to the patient. There was no blood loss. An illness or health problem was the main problem. - Palpitations The individual was not fighting for breath. The main reason for the assessment was not an allergic reaction, a heart attack, chest/upper back pain, probable stroke, recent fit/seizure or suicide attempt. The main reason for assessment was not new confusion, declared diabetic hypo/hyperglycaemia, successful resuscitation or ICD shock. The skin on the torso felt normal, warm or hot. Pathway Selected: PW1030, Palpitations The individual did not have an implanted cardioverter defibrillator. The individual was 35 years of age or more. There had been no crushing chest, upper back or abdominal pain, or chest pain spreading to the arm, neck or jaw in the previous 24 hours. There had been no episodes of inability to raise both arms, speech difficulty or unilateral facial weakness in the last week. There had been no episode of unilateral leg weakness in the last week. There had been no exposure to extremes of temperature in the previous 24 hours. There was new or worsening breathlessness since the onset of the problem. The breathing had worsened in the previous hour. There was no further information to help with dispatch. The individual did not have someone to stay with them. There was no safeguarding concern. The scene was safe. Pre-arrival instructions were considered appropriate. ADVICE GIVEN: Sit upright. Use prescribed inhalers, nebulisers or oxygen according to the instructions. Sit upright. Use prescribed inhalers, nebulisers or oxygen according to the instructions. If you can, ask for someone to meet and direct the vehicle. Shut any dogs away. If you do need to contact somebody do so now, then try and keep the line free as we may need to call you back. If there are any new symptoms, or their condition gets worse, changes or you have any other concerns call 999. Drinking caffeine or alcohol, or smoking and taking decongestants can all make the problem worse. Breathlessness or pain in the chest that is getting worse - CALL 999 Pain in the upper abdomen or upper back - CALL 999"
                            },
                            {
                                "text": "Pre-Triage Sieve, Patient breathing, Patient conscious, NOT noisy breathing, No NOC - Proceed to Triage"
                            }
                        ]
                    }
                ]
            }
        },
        {
            "fullUrl": "urn:uuid:9589fb37-87a2-48d8-968f-b371429208a8",
            "resource": {
                "resourceType": "Patient",
                "meta": {
                    "lastUpdated": "2021-11-26T15:00:00+00:00"
                },
                "extension": [
                    {
                        "url": "https://fhir.hl7.org.uk/StructureDefinition/Extension-UKCore-EthnicCategory",
                        "valueCodeableConcept": {
                            "coding": [
                                {
                                    "system": "https://fhir.hl7.org.uk/CodeSystem/UKCore-EthnicCategoryEngland",
                                    "code": "A",
                                    "display": "British, Mixed British"
                                }
                            ]
                        }
                    }
                ],
                "identifier": [
                    {
                        "system": "https://fhir.nhs.uk/Id/nhs-number",
                        "value": "3478526985"
                    }
                ],
                "name": [
                    {
                        "use": "official",
                        "text": "Mrs Julie Jones",
                        "family": "Jones",
                        "given": [
                            "Julie"
                        ],
                        "prefix": [
                            "Mrs"
                        ]
                    }
                ],
                "gender": "female",
                "birthDate": "1959-05-04",
                "address": [
                    {
                        "use": "home",
                        "type": "both",
                        "text": "22 Brightside Crescent, Overtown, West Yorkshire, LS10 4YU",
                        "line": [
                            "22 Brightside Crescent"
                        ],
                        "city": "Overtown",
                        "district": "West Yorkshire",
                        "postalCode": "LS10 4YU"
                    }
                ],
                "contact": [
                    {
                        "extension": [
                            {
                                "url": "https://fhir.hl7.org.uk/StructureDefinition/Extension-UKCore-ContactRank",
                                "valuePositiveInt": 1
                            }
                        ],
                        "relationship": [
                            {
                                "coding": [
                                    {
                                        "system": "http://terminology.hl7.org/CodeSystem/v3-RoleCode",
                                        "code": "ONESELF",
                                        "display": "self"
                                    }
                                ]
                            }
                        ],
                        "telecom": [
                            {
                                "system": "phone",
                                "value": "01138698975",
                                "use": "home",
                                "rank": 2
                            },
                            {
                                "system": "phone",
                                "value": "07736312544",
                                "use": "mobile",
                                "rank": 1
                            },
                            {
                                "system": "email",
                                "value": "jjones@hotmail.co.uk",
                                "use": "home",
                                "rank": 3
                            }
                        ]
                    },
                    {
                        "extension": [
                            {
                                "url": "https://fhir.hl7.org.uk/StructureDefinition/Extension-UKCore-ContactRank",
                                "valuePositiveInt": 2
                            }
                        ],
                        "relationship": [
                            {
                                "coding": [
                                    {
                                        "system": "http://terminology.hl7.org/CodeSystem/v2-0131",
                                        "code": "EP",
                                        "display": "Emergency contact person"
                                    }
                                ]
                            }
                        ],
                        "name": {
                            "family": "Grayson",
                            "given": [
                                "Jack"
                            ]
                        },
                        "telecom": [
                            {
                                "system": "phone",
                                "value": "0789 1234567",
                                "use": "mobile",
                                "rank": 1
                            }
                        ],
                        "gender": "male"
                    }
                ],
                "communication": [
                    {
                        "language": {
                            "coding": [
                                {
                                    "system": "https://fhir.hl7.org.uk/CodeSystem/UKCore-HumanLanguage",
                                    "code": "en",
                                    "display": "English"
                                }
                            ]
                        },
                        "preferred": true
                    }
                ],
                "generalPractitioner": [
                    {
                        "identifier": {
                            "system": "https://fhir.nhs.uk/id/ods-organization-code",
                            "value": "G82080"
                        },
                        "display": "Patient's Surgery"
                    }
                ]
            }
        },
        {
            "fullUrl": "urn:uuid:2ec99e82-a0af-4b70-bd53-1869d84b2ad1",
            "resource": {
                "resourceType": "Location",
                "meta": {
                    "lastUpdated": "2021-11-26T15:00:00+00:00"
                },
                "extension": [
                    {
                        "url": "https://fhir.nhs.uk/StructureDefinition/LocationExtension",
                        "extension": [
                            {
                                "url": "UPRN",
                                "valueString": "0008755622"
                            },
                            {
                                "url": "eastings",
                                "valueString": "0.33424"
                            },
                            {
                                "url": "northings",
                                "valueString": "0.55634"
                            }
                        ]
                    }
                ],
                "name": "Briggate corner",
                "address": {
                    "line": [
                        "20 The Headrow"
                    ],
                    "city": "Leeds",
                    "postalCode": "LS1 6PT",
                    "country": "UK"
                },
                "position": {
                    "longitude": 53.79957987629337,
                    "latitude": -1.5417544014466307
                }
            }
        },
        {
            "fullUrl": "urn:uuid:c584542a-a1c6-4b77-a3e8-4a5b0b9cea09",
            "resource": {
                "resourceType": "Observation",
                "meta": {
                    "lastUpdated": "2021-11-26T15:00:00+00:00"
                },
                "status": "final",
                "code": {
                    "coding": [
                        {
                            "system": "http://snomed.info/sct",
                            "code": "271594007",
                            "display": "Syncope (finding)"
                        }
                    ]
                },
                "subject": {
                    "reference": "urn:uuid:9589fb37-87a2-48d8-968f-b371429208a8"
                },
                "effectiveDateTime": "2021-11-26T15:00:00+00:00"
            }
        },
        {
            "fullUrl": "urn:uuid:5b94d980-b9b6-42ce-8ca3-56676af6c0a7",
            "resource": {
                "resourceType": "Flag",
                "meta": {
                    "lastUpdated": "2021-11-26T15:00:00+00:00"
                },
                "status": "active",
                "category": [
                    {
                        "coding": [
                            {
                                "system": "https://fhir.nhs.uk/CodeSystem/flag-categories-bars",
                                "code": "SS",
                                "display": "Scene Safety"
                            }
                        ]
                    }
                ],
                "code": {
                    "coding": [
                        {
                            "system": "https://fhir.nhs.uk/flag-codes-bars",
                            "code": "S",
                            "display": "The Scene is safe"
                        }
                    ]
                },
                "subject": {
                    "reference": "urn:uuid:9589fb37-87a2-48d8-968f-b371429208a8"
                },
                "encounter": {
                    "reference": "urn:uuid:8c63d621-4d86-4f57-8699-e8e22d49935d"
                }
            }
        },
        {
            "fullUrl": "urn:uuid:1e91008e-96d0-438b-873c-c6d2c007fc29",
            "resource": {
                "resourceType": "Consent",
                "meta": {
                    "lastUpdated": "2021-11-26T15:00:00+00:00"
                },
                "status": "active",
                "scope": {
                    "coding": [
                        {
                            "system": "http://terminology.hl7.org/CodeSystem/consentscope",
                            "code": "patient-privacy"
                        }
                    ]
                },
                "category": [
                    {
                        "coding": [
                            {
                                "system": "http://terminology.hl7.org/CodeSystem/v3-ActCode",
                                "code": "IMPLIED"
                            }
                        ]
                    }
                ],
                "patient": {
                    "reference": "urn:uuid:9589fb37-87a2-48d8-968f-b371429208a8"
                },
                "dateTime": "2021-11-26",
                "policyRule": {
                    "coding": [
                        {
                            "system": "https://fhir.nhs.uk/CodeSystem/consent-categories-bars",
                            "code": "DRC",
                            "display": "Direct Care"
                        }
                    ]
                }
            }
        }
    ]
}